Folder: pyEchem/mti_extract_write_plot/example/data

Note: mti_extract_write_plot/README.md
# mti_extract_write_plot

## Setup an installation

The following guidelines assume that the user runs a conda distribution, i.e.,
Anaconda or Miniconda. If these guidelines are followed, all dependencies for
the `mti_extract_write_plot` code will be installed.

### Create a new environment
- It is highly recommended to run the code in a conda environment dedicated to
  the pyEchem library. If the user does not already have that, such a conda
  environment called `pyechem` using the latest Python 3 version can be
  created from:
  ```shell
  conda create -n pyechem python=3
  ```

### Activate environment
- When the user has a `pyechem` conda environment, the user should activate the
  pyechem environment:
  ```shell
  conda activate pyechem
  ```

### Install dependencies
- Navigate to the main `mti_extract_write_plot` directory. Using conda,
  dependencies from the `conda-forge` channel will be installed, when running:
  ```shell
  conda install -c conda-forge --file requirements/run.txt
  ```
- Additional dependencies using pip will be installed, when running:
  ```shell
  pip install -r requirements/pip_requirements.txt
  ```
Now, all `mti_extract_write_plot` dependencies are now installed for the
`pyechem` conda environment.

File: 09092019_Li-TiO2-Bronze-3nm-p2_05_6.txt
Cycle ID	Cap_Chg(mAh)	Cap_DChg(mAh)	RCap_Chg(mAh/g)	RCap_DChg(mAh/g)	Efficiency(%)	Engy_Chg(mWh)	Engy_DChg(mWh)	Mid-value Voltage(mV)	CC_Chg_Cap(mAh)	CC_Chg_Rat(%)	Platform_Cap(mAh)	Platform_RCap(mAh/g)	Platform_Efficiency(%)	Platform_Time	Capacitance_Chg(F)	Capacitance_DChg(F)	rd(mO)	REngy_Chg(mWh/g)	REngy_DChg(mWh/g)	Energy Efficiency(%)
	Step ID	Step Type	Step Time(H:M:S:ms)	Cap(mAh)	CmpCap(mAh/g)	Energy(mWh)	CmpEng(mWh/g)	Capacitance_Chg(F)	Start Vol(mV)	End Vol(mV)	Start Temperature(?)	End Temperature(?)
		Record ID	Time(H:M:S:ms)	Vol(mV)	Cur(mA)	Temperature(?)	Cap(mAh)	CmpCap(mAh/g)	Energy(mWh)	CmpEng(mWh/g)	Realtime
1	0.000	1.817	0.000	1817.413	0.00	0.000	2.767	1516.6	0.000	0.00	1.817	1816.568	99.95	11:49:10	0.0000	0.0000	0.0000	0.000	2766.635	0.00%
		141	0:11:40:000	3274.4	0.000	0.0	0.000	0.000	0.000	0.0	2019-09-09 16:48:24
		283	0:23:30:000	3269.4	0.000	0.0	0.000	0.000	0.000	0.0	2019-09-09 17:00:14
		425	0:35:20:000	3264.8	0.000	0.0	0.000	0.000	0.000	0.0	2019-09-09 17:12:04
		567	0:47:10:000	3259.8	0.000	0.0	0.000	0.000	0.000	0.0	2019-09-09 17:23:54
		709	0:59:00:000	3254.5	0.000	0.0	0.000	0.000	0.000	0.0	2019-09-09 17:35:44
		851	1:10:50:000	3249.6	0.000	0.0	0.000	0.000	0.000	0.0	2019-09-09 17:47:34
		992	0:02:25:000	2461.2	-0.152	0.0	0.006	6.121	0.016	16.1	2019-09-09 17:59:18
		1134	0:14:15:000	2317.0	-0.151	0.0	0.058	58.305	0.139	138.7	2019-09-09 18:11:08
		1276	0:26:05:000	2215.7	-0.152	0.0	0.088	88.216	0.207	206.6	2019-09-09 18:22:58
		1418	0:37:55:000	2138.2	-0.151	0.0	0.118	118.140	0.272	271.9	2019-09-09 18:34:48
		1560	0:49:45:000	2073.1	-0.152	0.0	0.148	148.052	0.335	335.0	2019-09-09 18:46:38
		1702	1:01:35:000	2014.8	-0.152	0.0	0.178	177.970	0.396	396.3	2019-09-09 18:58:28
		1844	1:13:25:000	1963.3	-0.151	0.0	0.208	207.889	0.456	456.0	2019-09-09 19:10:18
		1986	1:25:15:000	1916.2	-0.152	0.0	0.238	237.819	0.514	514.1	2019-09-09 19:22:08
		2128	1:37:05:000	1874.6	-0.151	0.0	0.268	267.751	0.571	571.0	2019-09-09 19:33:58
		2270	1:48:55:000	1838.1	-0.152	0.0	0.298	297.686	0.627	626.7	2019-09-09 19:45:48
		2412	2:00:45:000	1806.1	-0.152	0.0	0.328	327.631	0.681	681.3	2019-09-09 19:57:38
		2554	2:12:35:000	1778.8	-0.152	0.0	0.358	357.585	0.735	735.1	2019-09-09 20:09:28
		2696	2:24:25:000	1756.5	-0.152	0.0	0.388	387.529	0.788	788.2	2019-09-09 20:21:18
		2838	2:36:15:000	1739.2	-0.152	0.0	0.417	417.472	0.841	840.6	2019-09-09 20:33:08
		2980	2:48:05:000	1725.8	-0.152	0.0	0.447	447.415	0.893	892.6	2019-09-09 20:44:58
		3122	2:59:55:000	1713.4	-0.152	0.0	0.477	477.351	0.944	944.1	2019-09-09 20:56:48
		3264	3:11:45:000	1701.0	-0.152	0.0	0.507	507.294	0.995	995.4	2019-09-09 21:08:38
		3406	3:23:35:000	1688.6	-0.152	0.0	0.537	537.234	1.046	1046.2	2019-09-09 21:20:28
		3548	3:35:25:000	1676.8	-0.152	0.0	0.567	567.177	1.097	1096.7	2019-09-09 21:32:18
		3690	3:47:15:000	1665.4	-0.151	0.0	0.597	597.104	1.147	1146.8	2019-09-09 21:44:08
		3832	3:59:05:000	1655.5	-0.152	0.0	0.627	627.016	1.197	1196.6	2019-09-09 21:55:58
		3974	4:10:55:000	1645.2	-0.151	0.0	0.657	656.928	1.246	1246.1	2019-09-09 22:07:48
		4116	4:22:45:000	1635.3	-0.151	0.0	0.687	686.843	1.295	1295.3	2019-09-09 22:19:38
		4258	4:34:35:000	1624.5	-0.152	0.0	0.717	716.764	1.344	1344.1	2019-09-09 22:31:28
		4400	4:46:25:000	1612.1	-0.152	0.0	0.747	746.700	1.393	1392.7	2019-09-09 22:43:18
		4542	4:58:15:000	1597.8	-0.152	0.0	0.777	776.631	1.441	1440.8	2019-09-09 22:55:08
		4684	5:10:05:000	1581.7	-0.152	0.0	0.807	806.582	1.489	1488.5	2019-09-09 23:06:58
		4826	5:21:55:000	1564.0	-0.151	0.0	0.837	836.528	1.536	1535.7	2019-09-09 23:18:48
		4968	5:33:45:000	1544.8	-0.152	0.0	0.866	866.481	1.582	1582.4	2019-09-09 23:30:38
		5110	5:45:35:000	1524.9	-0.152	0.0	0.896	896.427	1.628	1628.4	2019-09-09 23:42:28
		5252	5:57:25:000	1504.5	-0.152	0.0	0.926	926.374	1.674	1673.8	2019-09-09 23:54:18
		5394	6:09:15:000	1484.0	-0.151	0.0	0.956	956.313	1.719	1718.6	2019-09-10 00:06:08
		5536	6:21:05:000	1462.6	-0.152	0.0	0.986	986.239	1.763	1762.8	2019-09-10 00:17:58
		5678	6:32:55:000	1441.5	-0.152	0.0	1.016	1016.189	1.806	1806.4	2019-09-10 00:29:48
		5820	6:44:45:000	1419.8	-0.152	0.0	1.046	1046.136	1.849	1849.3	2019-09-10 00:41:38
		5962	6:56:35:000	1397.8	-0.152	0.0	1.076	1076.088	1.892	1891.5	2019-09-10 00:53:28
		6104	7:08:25:000	1376.4	-0.152	0.0	1.106	1106.029	1.933	1933.2	2019-09-10 01:05:18
		6246	7:20:15:000	1355.0	-0.151	0.0	1.136	1135.974	1.974	1974.1	2019-09-10 01:17:08
		6388	7:32:05:000	1334.0	-0.152	0.0	1.166	1165.907	2.014	2014.4	2019-09-10 01:28:58
		6530	7:43:55:000	1313.2	-0.151	0.0	1.196	1195.839	2.054	2054.1	2019-09-10 01:40:48
		6672	7:55:45:000	1293.0	-0.152	0.0	1.226	1225.780	2.093	2093.2	2019-09-10 01:52:38
		6814	8:07:35:000	1273.5	-0.151	0.0	1.256	1255.719	2.132	2131.7	2019-09-10 02:04:28
		6956	8:19:25:000	1254.9	-0.152	0.0	1.286	1285.663	2.170	2169.6	2019-09-10 02:16:18
		7098	8:31:15:000	1236.9	-0.152	0.0	1.316	1315.602	2.207	2206.9	2019-09-10 02:28:08
		7240	8:43:05:000	1219.6	-0.152	0.0	1.346	1345.554	2.244	2243.7	2019-09-10 02:39:58
		7382	8:54:55:000	1203.1	-0.152	0.0	1.376	1375.507	2.280	2280.1	2019-09-10 02:51:48
		7524	9:06:45:000	1187.6	-0.152	0.0	1.405	1405.454	2.316	2315.9	2019-09-10 03:03:38
		7666	9:18:35:000	1172.8	-0.152	0.0	1.435	1435.395	2.351	2351.3	2019-09-10 03:15:28
		7808	9:30:25:000	1158.2	-0.152	0.0	1.465	1465.343	2.386	2386.2	2019-09-10 03:27:18
		7950	9:42:15:000	1144.5	-0.152	0.0	1.495	1495.289	2.421	2420.7	2019-09-10 03:39:08
		8092	9:54:05:000	1131.5	-0.152	0.0	1.525	1525.236	2.455	2454.9	2019-09-10 03:50:58
		8234	10:05:55:000	1117.9	-0.152	0.0	1.555	1555.194	2.489	2488.6	2019-09-10 04:02:48
		8376	10:17:45:000	1104.9	-0.152	0.0	1.585	1585.151	2.522	2521.9	2019-09-10 04:14:38
		8518	10:29:35:000	1091.8	-0.152	0.0	1.615	1615.107	2.555	2554.8	2019-09-10 04:26:28
		8660	10:41:25:000	1078.5	-0.152	0.0	1.645	1645.053	2.587	2587.3	2019-09-10 04:38:18
		8802	10:53:15:000	1065.2	-0.151	0.0	1.675	1675.003	2.619	2619.5	2019-09-10 04:50:08
		8944	11:05:05:000	1051.8	-0.152	0.0	1.705	1704.957	2.651	2651.2	2019-09-10 05:01:58
		9086	11:16:55:000	1037.9	-0.151	0.0	1.735	1734.919	2.683	2682.5	2019-09-10 05:13:48
		9228	11:28:45:000	1023.9	-0.152	0.0	1.765	1764.878	2.713	2713.4	2019-09-10 05:25:38
		9370	11:40:35:000	1010.3	-0.152	0.0	1.795	1794.830	2.744	2743.9	2019-09-10 05:37:28
		9509	0:01:25:000	1088.4	0.152	0.0	0.004	3.588	0.004	3.9	2019-09-10 05:48:48
		9651	0:13:15:000	1215.8	0.152	0.0	0.034	33.554	0.039	38.7	2019-09-10 06:00:38
		9793	0:25:05:000	1278.5	0.152	0.0	0.064	63.524	0.076	76.2	2019-09-10 06:12:28
		9935	0:36:55:000	1323.7	0.152	0.0	0.093	93.491	0.115	115.3	2019-09-10 06:24:18
		10077	0:48:45:000	1365.3	0.152	0.0	0.123	123.459	0.156	155.6	2019-09-10 06:36:08
		10219	1:00:35:000	1404.6	0.152	0.0	0.153	153.429	0.197	197.2	2019-09-10 06:47:58
		10361	1:12:25:000	1440.6	0.152	0.0	0.183	183.359	0.240	239.8	2019-09-10 06:59:48
		10503	1:24:15:000	1472.9	0.152	0.0	0.213	213.328	0.284	283.5	2019-09-10 07:11:38
		10645	1:36:05:000	1502.3	0.152	0.0	0.243	243.298	0.328	328.2	2019-09-10 07:23:28
		10787	1:47:55:000	1530.2	0.152	0.0	0.273	273.267	0.374	373.7	2019-09-10 07:35:18
		10929	1:59:45:000	1556.2	0.152	0.0	0.303	303.234	0.420	420.0	2019-09-10 07:47:08
		11071	2:11:35:000	1581.4	0.152	0.0	0.333	333.202	0.467	467.1	2019-09-10 07:58:58
		11213	2:23:25:000	1605.9	0.152	0.0	0.363	363.174	0.515	514.9	2019-09-10 08:10:48
		11355	2:35:15:000	1628.8	0.152	0.0	0.393	393.147	0.563	563.5	2019-09-10 08:22:38
		11497	2:47:05:000	1650.5	0.152	0.0	0.423	423.118	0.613	612.7	2019-09-10 08:34:28
		11639	2:58:55:000	1670.6	0.152	0.0	0.453	453.087	0.663	662.6	2019-09-10 08:46:18
		11781	3:10:45:000	1687.4	0.152	0.0	0.483	483.056	0.713	713.0	2019-09-10 08:58:08
		11923	3:22:35:000	1701.6	0.151	0.0	0.513	513.020	0.764	763.8	2019-09-10 09:09:58
		12065	3:34:25:000	1714.4	0.152	0.0	0.543	542.988	0.815	815.1	2019-09-10 09:21:48
		12207	3:46:15:000	1726.1	0.152	0.0	0.573	572.958	0.867	866.8	2019-09-10 09:33:38
		12349	3:58:05:000	1737.9	0.152	0.0	0.603	602.922	0.919	918.7	2019-09-10 09:45:28
		12491	4:09:55:000	1750.0	0.152	0.0	0.633	632.889	0.971	971.1	2019-09-10 09:57:18
		12633	4:21:45:000	1762.7	0.152	0.0	0.663	662.864	1.024	1023.8	2019-09-10 10:09:08
		12775	4:33:35:000	1777.0	0.152	0.0	0.693	692.834	1.077	1077.0	2019-09-10 10:20:58
		12917	4:45:25:000	1792.2	0.152	0.0	0.723	722.806	1.131	1130.5	2019-09-10 10:32:48
		13059	4:57:15:000	1808.6	0.152	0.0	0.753	752.780	1.185	1184.6	2019-09-10 10:44:38
		13201	5:09:05:000	1827.2	0.152	0.0	0.783	782.755	1.239	1239.2	2019-09-10 10:56:28
		13343	5:20:55:000	1847.7	0.152	0.0	0.813	812.726	1.294	1294.3	2019-09-10 11:08:18
		13485	5:32:45:000	1869.7	0.152	0.0	0.843	842.697	1.350	1350.2	2019-09-10 11:20:08
		13627	5:44:35:000	1889.8	0.152	0.0	0.873	872.665	1.407	1406.6	2019-09-10 11:31:58
		13769	5:56:25:000	1910.6	0.152	0.0	0.903	902.635	1.464	1463.7	2019-09-10 11:43:48
		13911	6:08:15:000	1937.3	0.152	0.0	0.933	932.596	1.521	1521.4	2019-09-10 11:55:38
		14053	6:20:05:000	1972.0	0.152	0.0	0.963	962.558	1.580	1580.1	2019-09-10 12:07:28
		14195	6:31:55:000	2014.1	0.152	0.0	0.993	992.521	1.640	1639.9	2019-09-10 12:19:18
		14337	6:43:45:000	2061.6	0.152	0.0	1.022	1022.483	1.701	1701.1	2019-09-10 12:31:08
		14479	6:55:35:000	2112.4	0.152	0.0	1.052	1052.443	1.764	1763.7	2019-09-10 12:42:58
		14621	7:07:25:000	2168.2	0.152	0.0	1.082	1082.406	1.828	1828.0	2019-09-10 12:54:48
		14763	7:19:15:000	2230.9	0.152	0.0	1.112	1112.359	1.894	1894.0	2019-09-10 13:06:38
		14905	7:31:05:000	2309.9	0.152	0.0	1.142	1142.319	1.962	1962.1	2019-09-10 13:18:28
		15047	7:42:55:000	2443.8	0.152	0.0	1.172	1172.275	2.033	2033.2	2019-09-10 13:30:18
		15189	7:54:45:000	2806.6	0.152	0.0	1.202	1202.240	2.111	2111.4	2019-09-10 13:42:08
		15329	0:04:45:000	2208.5	-0.152	0.0	0.012	12.031	0.028	27.7	2019-09-10 13:53:36
		15471	0:16:35:000	2053.8	-0.152	0.0	0.042	41.995	0.091	91.4	2019-09-10 14:05:26
		15613	0:28:25:000	1961.4	-0.152	0.0	0.072	71.955	0.152	151.6	2019-09-10 14:17:16
		15755	0:40:15:000	1892.9	-0.152	0.0	0.102	101.915	0.209	209.4	2019-09-10 14:29:06
		15897	0:52:05:000	1840.2	-0.152	0.0	0.132	131.866	0.265	265.4	2019-09-10 14:40:56
		16039	1:03:55:000	1799.0	-0.152	0.0	0.162	161.820	0.320	320.0	2019-09-10 14:52:46
		16181	1:15:45:000	1768.3	-0.151	0.0	0.192	191.765	0.374	373.5	2019-09-10 15:04:36
		16323	1:27:35:000	1747.2	-0.152	0.0	0.222	221.704	0.426	426.2	2019-09-10 15:16:26
		16465	1:39:25:000	1728.6	-0.152	0.0	0.252	251.652	0.478	478.4	2019-09-10 15:28:16
		16607	1:51:15:000	1709.7	-0.151	0.0	0.282	281.591	0.530	530.0	2019-09-10 15:40:06
		16749	2:03:05:000	1690.8	-0.152	0.0	0.312	311.537	0.581	581.0	2019-09-10 15:51:56
		16891	2:14:55:000	1673.4	-0.152	0.0	0.341	341.496	0.631	631.5	2019-09-10 16:03:46
		16999	2:23:55:000	1661.0	-0.152	0.0	0.364	364.284	0.670	669.5	2019-09-10 16:12:46